Folder: materials_paper_fmmpy/Data

Note: README.md
# Replication materials for 'fmmpy: A Python module for Frequency-Modulated MÃ¶bius Signal Decomposition'

The module is availible at:
ðŸ“¦ PyPI: [fmmpy](https://pypi.org/project/fmmpy/)  
ðŸ”— GitHub: [FMMGroupVa/fmmpy](https://github.com/FMMGroupVa/fmmpy)

> *fmmpy: A Python module for Frequency-Modulated MÃ¶bius Signal Decomposition*  
> Christian Canedo, RocÃ­o CarratalÃ¡-SÃ¡ez, Cristina Rueda
> [Submitted, 2025]

This repository contains the source code and documentation for the `fmmpy` Python package, which implements the Frequency-Modulated MÃ¶bius (FMM) model for signal decomposition. 

## ðŸ“‚ Reproducibility
All instructions to reproduce the results and figures in the paper are included in the files `replication_script.py` and `Times_comparison.R`.
The `replication_script.py` script runs a menu with different options to reproduce the different sections' results.

## ðŸ“„ Paper Status
This repository accompanies the paper currently submitted. Once accepted, the final reference and DOI will be added here.

File: XPS_Fe2p_data.csv
BindingEnergy,Channel_1,Channel_2,Channel_3,Channel_4
668.967,1.3957,2.14854,0.90244,1.84796
669.467,1.31319,1.91984,0.800614,1.88977
669.967,1.53554,2.01312,0.822218,2.03669
670.467,1.31923,1.9681,0.820042,1.76
670.967,1.30395,1.90736,0.823326,1.70456
671.467,1.01468,2.05613,0.8853,2.04149
671.967,0.947315,2.3412,1.06866,1.86755
672.467,0.919639,1.99062,0.839799,2.02833
672.967,1.13755,2.23157,0.733473,1.31769
673.467,1.34101,2.20033,1.03664,1.63201
673.967,0.889061,2.19909,0.840181,1.70609
674.467,1.25325,2.37971,0.884395,1.67086
674.967,1.0915,2.13451,0.747749,1.74634
675.467,0.814563,2.02578,0.924673,1.92331
675.967,0.904677,1.98558,0.775187,1.72042
676.467,0.807601,2.18952,0.793521,1.39399
676.967,0.932085,1.73647,0.781405,1.86022
677.467,0.923639,1.75022,0.751249,1.89573
677.967,0.839113,2.05533,0.814573,1.64539
678.467,1.35275,1.85791,0.924418,1.49161
678.967,1.13331,1.96606,0.979142,1.79018
679.467,1.1025,1.83554,0.999876,1.76491
679.967,0.9922,1.96432,0.79838,1.92546
680.467,1.1818,1.92356,0.822144,1.80089
680.967,0.747738,1.97641,0.999368,1.46057
681.467,1.09206,2.30047,1.1006,1.64705
681.967,0.672286,2.25342,0.778136,1.59099
682.467,0.90361,1.98563,0.78162,1.62256
682.967,0.960284,1.6574,0.879234,1.93955
683.467,0.887038,1.93007,1.03698,1.57601
683.967,1.16844,2.01264,0.817142,1.66049
684.467,0.717487,1.78367,0.819257,1.76119
684.967,0.936541,1.98501,0.908191,1.61762
685.467,0.985675,1.90224,0.743885,1.83737
685.967,0.859089,1.62478,0.890609,1.95284
686.467,1.07064,1.98881,1.10094,1.96662
686.967,1.26253,1.78213,1.17205,1.79609
687.467,0.753381,1.62917,1.13038,1.82024
687.967,1.06488,2.19141,0.693485,1.62578
688.467,1.17424,1.78652,1.13289,1.93353
688.967,0.597923,2.07785,1.12964,1.78228
689.467,1.00773,1.9847,0.998117,1.93455
689.967,1.1862,2.0995,1.22868,2.14002
690.467,1.00877,2.04988,1.11493,2.19736
690.967,1.26947,1.79746,0.84311,1.93912
691.467,1.12985,2.54675,1.00099,2.12405
691.967,1.22407,2.35922,1.38465,2.20688
692.467,0.950912,2.14887,0.905532,2.01261
692.967,1.02839,2.06495,1.16646,2.00996
693.467,1.18534,2.12046,1.34026,2.08889
693.967,1.18896,2.42039,1.14151,1.80659
694.467,1.13538,2.40039,1.10757,1.71407
694.967,1.50782,2.2711,1.30344,2.06737
695.467,1.08286,2.57011,1.24116,1.98701
695.967,1.60267,2.34266,1.12307,1.65191
696.467,1.41241,2.1289,1.30673,2.16494
696.967,1.13789,1.89817,1.01157,2.0169
697.467,1.46133,2.51298,1.35325,2.3261
697.967,1.32722,2.43173,1.26608,2.23991
698.467,1.49652,2.43268,1.40516,2.2857
698.967,1.52033,2.3317,1.25357,2.32662
699.467,1.58149,2.56031,1.30636,2.49561
699.967,1.51384,2.72464,1.4473,2.19896
700.467,1.35495,2.48222,1.39511,2.35608
700.967,1.29406,2.596,1.38602,2.3
701.467,1.4112,2.58879,1.2755,2.40556
701.967,1.75162,2.61575,1.34081,2.6361
702.467,1.76288,2.37361,1.41892,2.81733
702.967,1.32273,2.82131,1.43643,2.49652
703.467,1.30373,3.11842,1.23273,2.36168
703.967,1.32066,2.78479,1.26153,2.24872
704.467,1.47639,3.22954,1.30828,2.42026
704.967,1.47223,3.06366,1.59473,2.21869
705.467,1.3807,2.77794,1.30772,2.40344
705.967,1.55347,2.70739,1.24292,2.34858
706.467,1.59821,3.00557,1.49156,2.43285
706.967,1.69498,3.09863,1.2587,2.63012
707.467,1.49126,3.18252,1.41568,2.75079
707.967,1.6033,3.36203,1.53293,2.68011
708.467,1.63508,3.25613,1.5172,2.89033
708.967,1.83845,2.82466,1.60499,2.7238
709.467,1.98489,3.21672,1.4065,2.99391
709.967,1.80079,3.11512,1.36085,2.79794
710.467,1.3603,3.13999,1.89578,2.8496
710.967,1.57188,3.52615,1.73765,3.08504
711.467,1.85299,2.86494,1.81037,3.07876
711.967,1.56392,3.09567,1.70069,2.81178
712.467,1.74406,3.52388,1.66125,2.91201
712.967,1.78241,3.31507,1.89693,2.63585
713.467,1.63898,3.42901,1.53595,3.07035
713.967,2.24487,3.47143,1.69063,2.93904
714.467,1.84254,3.76966,1.53863,3.0011
714.967,2.15769,3.75155,1.68432,3.20352
715.467,1.83049,3.59309,1.58675,3.2223
715.967,1.67998,3.49773,1.7738,3.17726
716.467,1.54048,3.44376,2.1036,3.34848
716.967,2.10579,3.3812,1.84128,2.83742
717.467,2.20353,4.29118,1.59482,3.26551
717.967,1.93348,3.98405,1.56896,3.09447
718.467,2.10082,3.71887,1.6821,3.00415
718.967,2.23423,3.90058,1.93988,3.08183
719.467,1.84081,3.95529,1.83259,3.07129
719.967,1.89821,4.01448,1.94643,3.22853
720.467,2.4943,3.7465,1.68813,3.44283
720.967,2.20762,3.09524,1.90525,3.23599
721.467,2.0105,4.21157,1.93844,3.4743
721.967,2.56175,3.64689,1.95921,3.38521
722.467,2.27493,4.01457,1.93396,3.20433
722.967,2.24264,3.96228,1.64914,3.66402
723.467,2.05615,3.86249,1.82041,2.98742
723.967,2.32713,4.21817,1.92641,3.59021
724.467,2.2968,3.76417,2.02552,3.66327
724.967,2.48929,4.07146,2.12422,3.36958
725.467,2.37334,4.09623,2.09609,3.02371
725.967,2.41357,3.75478,2.15824,3.66025
726.467,2.14508,3.78813,2.13473,3.52927
726.967,2.74774,4.29776,2.16465,3.26995
727.467,2.30754,4.60396,2.27788,3.39492
727.967,2.56644,4.0668,2.26439,3.65871
728.467,2.60568,4.53009,2.11379,3.64235
728.967,2.46407,4.68504,2.43979,3.36789
729.467,2.74993,4.99946,2.39308,3.87079
729.967,2.30867,4.86177,2.50779,3.65571
730.467,3.00643,4.36676,2.53834,3.78633
730.967,2.89596,4.77676,2.49023,3.38041
731.467,2.92443,5.15946,2.29519,3.55444
731.967,3.06235,5.45326,2.31074,4.25202
732.467,2.53014,4.89659,2.44813,4.21775
732.967,2.86063,4.89171,2.57937,4.14844
733.467,3.10107,5.26779,2.5927,3.91864
733.967,3.36611,5.44787,2.8442,4.44514
734.467,3.21858,5.87555,2.49615,4.1959
734.967,3.48019,5.64568,3.25375,4.42527
735.467,3.22692,5.26272,3.00948,4.73344
735.967,3.34552,5.88923,3.13051,4.85131
736.467,3.72584,5.83757,2.9377,4.35398
736.967,3.72082,6.20122,2.87234,4.58575
737.467,3.85017,6.30477,3.20775,5.06007
737.967,3.62406,6.71744,3.24789,5.12624
738.467,4.58911,6.26054,3.41224,4.97922
738.967,4.30823,6.53765,3.20532,4.91371
739.467,4.40277,7.11098,3.5246,5.58514
739.967,4.68988,6.60697,3.58471,5.21526
740.467,5.00643,7.39749,3.78558,5.86451
740.967,5.30071,8.05486,3.92621,6.05745
741.467,5.71078,8.41444,4.40558,6.00526
741.967,6.65574,8.96637,4.56872,6.72025
742.467,6.83098,8.93701,5.08473,7.49739
742.967,7.38414,9.81078,5.18016,7.768
743.467,7.47249,10.1172,5.26838,7.42902
743.967,7.55619,9.77167,5.26134,7.7389
744.467,7.82548,10.0895,5.24581,8.28032
744.967,7.77703,10.5575,5.35084,8.14404
745.467,7.77107,10.1579,5.47297,7.86223
745.967,7.40901,10.1466,4.8769,7.86141
746.467,7.8175,10.3094,5.25327,7.68506
746.967,7.64612,10.1705,4.95663,7.82303
747.467,8.1059,10.3973,5.55644,8.18191
747.967,8.31246,10.4564,5.76209,8.25131
748.467,9.12374,11.1154,6.05412,8.56428
748.967,9.04696,12.1601,5.9352,8.47337
749.467,9.90368,12.8259,6.1087,9.5035
749.967,10.5625,12.6913,6.79557,9.86341
750.467,11.0944,13.5686,7.38226,10.1641
750.967,11.6501,14.1142,7.4486,10.9062
751.467,12.4399,14.5795,7.6288,11.417
751.967,13.4812,15.7793,8.32896,11.7686
752.467,14.0148,16.8614,8.77254,12.4328
752.967,14.4049,17.5142,8.61611,12.8398
753.467,15.2298,17.8452,9.53812,13.4887
753.967,15.5696,18.2829,9.44566,13.9482
754.467,16.2756,19.2003,10.1946,14.0996
754.967,16.7314,19.5766,10.2439,14.7536
755.467,16.5861,20.0123,10.7606,14.6873
755.967,17.0339,20.5417,10.9067,15.519
756.467,17.7834,21.1992,11.2137,15.9545
756.967,18.9268,21.1533,11.6358,16.7191
757.467,19.6585,22.5139,11.7972,17.36
757.967,21.2265,23.8386,12.7056,17.6536
758.467,21.7654,24.5682,13.0616,18.3464
758.967,22.5006,26.4216,13.4976,19.3914
759.467,24.1232,27.422,14.2796,21.0334
759.967,26.1521,29.4281,15.1885,21.8977
760.467,27.7047,31.4415,16.0965,23.1275
760.967,29.4641,33.5104,17.3085,24.3788
761.467,31.547,35.5722,18.4437,25.5564
761.967,32.2493,36.2909,18.4706,26.5785
762.467,33.112,37.1128,19.4447,27.1876
762.967,33.2072,36.6149,19.3828,27.2434
763.467,32.1346,35.8259,19.0834,26.3736
763.967,30.1765,34.4834,18.2361,25.2037
764.467,28.9392,31.8811,17.1275,23.962
764.967,26.7359,30.533,16.5439,22.6564
765.467,25.3182,28.8516,15.6928,21.5509
765.967,25.1625,29.1852,15.5611,22.1439
766.467,25.3854,29.3548,15.8165,21.8232
766.967,24.8895,28.5224,15.464,21.3843
767.467,23.5041,26.9728,14.877,20.0144
767.967,21.9098,25.1753,13.7895,19.0268
768.467,21.5015,23.7613,13.2711,17.7338
768.967,21.0203,23.7159,12.9407,17.227
769.467,21.1108,23.5218,12.4784,17.5183
769.967,21.324,23.4047,12.3712,17.5724
770.467,21.4997,24.0968,12.9832,18.0509
770.967,22.1754,25.2552,13.1569,18.2655
771.467,23.401,26.5501,13.9908,19.975
771.967,25.0252,28.0432,14.6633,20.8468
772.467,27.6474,30.4621,15.7643,22.2113
772.967,29.4007,32.5399,17.1676,24.1728
773.467,32.3028,36.1841,18.3662,25.7994
773.967,35.1825,39.5082,19.9822,28.4687
774.467,38.6966,43.1272,21.5856,31.4344
774.967,40.9396,45.9985,23.5265,33.3699
775.467,44.1108,47.9799,24.9348,35.0989
775.967,44.8627,48.4111,25.4077,35.6674
776.467,42.8899,46.2489,24.6757,33.0167
776.967,36.4237,39.4915,22.3024,29.3351
777.467,29.1366,32.2071,18.3652,24.077
777.967,22.9945,26.6585,15.2067,20.0579
778.467,18.6359,21.6481,12.366,16.5372
778.967,14.8627,18.592,10.8792,14.5921
779.467,13.1486,16.4454,9.64352,13.7925
779.967,10.6362,13.2941,8.51255,11.1755
780.467,6.37317,7.77599,5.76375,6.70975
780.967,3.18147,3.60238,3.24497,3.22241
781.467,1.90394,1.95954,1.72954,1.86179
781.967,1.43445,1.55738,1.29656,1.49388
782.467,1.38513,1.37337,1.08015,1.33232
782.967,1.31697,1.27643,1.0579,1.05801
783.467,1.13527,1.12544,0.996403,1.16623
783.967,1.11259,1.27388,1.0026,0.976591
784.467,1.03678,1.17638,0.938828,1.04148
784.967,1.07596,1.21135,1.10322,1.07511
785.467,1.079,1.13509,0.997887,1.17655
785.967,1.1535,1.21148,1.10637,1.12355
786.467,1.18301,1.16511,1.1588,1.03531
786.967,1.20433,1.1598,1.16215,1.05552
787.467,1.07484,1.15634,1.09895,1.12867
787.967,1.2664,1.19057,1.05906,1.10511
788.467,1.14922,1.22692,1.06436,1.17075
788.967,1.24374,1.15848,1.02047,1.12856
789.467,1.34118,1.29308,1.01648,1.15132
789.967,1.28741,1.21066,1.03519,1.27971
790.467,1.27476,1.29096,1.10865,1.45151
790.967,1.20596,1.36168,1.07463,1.12657
791.467,1.21743,1.45371,1.16957,1.34916