Folder: materials_paper_fmmpy/Results

Note: Results/execution_times_FMM_AFD.txt
AFD:
Mean execution time over 1 runs: 0.0853 s
Max time: 0.0853 s

FMM:
Mean execution time over 1 runs: 0.0365 s
Max time: 0.0365 s

Note: Results/execution_times_R_FMM.txt
FMM in R:
Mean execution time over 100 runs: 17.6819 s
Max time: 17.9693 s

Note: Results/execution_times_restriction_comparison.txt
Restricted:
Mean execution time over 1 runs: 0.5367 s
Max time: 0.5367 s

Unrestricted:
Mean execution time over 1 runs: 0.5887 s
Max time: 0.5887 s

Note: README.md
# Replication materials for 'fmmpy: A Python module for Frequency-Modulated MÃ¶bius Signal Decomposition'

The module is availible at:
ðŸ“¦ PyPI: [fmmpy](https://pypi.org/project/fmmpy/)  
ðŸ”— GitHub: [FMMGroupVa/fmmpy](https://github.com/FMMGroupVa/fmmpy)

> *fmmpy: A Python module for Frequency-Modulated MÃ¶bius Signal Decomposition*  
> Christian Canedo, RocÃ­o CarratalÃ¡-SÃ¡ez, Cristina Rueda
> [Submitted, 2025]

This repository contains the source code and documentation for the `fmmpy` Python package, which implements the Frequency-Modulated MÃ¶bius (FMM) model for signal decomposition. 

## ðŸ“‚ Reproducibility
All instructions to reproduce the results and figures in the paper are included in the files `replication_script.py` and `Times_comparison.R`.
The `replication_script.py` script runs a menu with different options to reproduce the different sections' results.

## ðŸ“„ Paper Status
This repository accompanies the paper currently submitted. Once accepted, the final reference and DOI will be added here.

File: timing_XPS_both_experiments.csv
channels,n_obs,n_back,max_iter,post_optimize,time_mean,time_min,time_max,exp,n_repeats
1,200,5,5,True,6.13293,6.10583,6.15892,obs_scaling,
2,200,5,5,True,8.06864,8.03123,8.10949,obs_scaling,
3,200,5,5,True,9.88816,9.84104,9.93715,obs_scaling,
4,200,5,5,True,11.6784,11.6277,11.7479,obs_scaling,
5,200,5,5,True,13.4772,13.4103,13.5232,obs_scaling,
6,200,5,5,True,15.2771,15.2222,15.3689,obs_scaling,
7,200,5,5,True,17.0163,16.9082,17.2292,obs_scaling,
8,200,5,5,True,18.8359,18.6569,18.8939,obs_scaling,
1,300,5,5,True,6.69471,6.64923,6.75506,obs_scaling,
2,300,5,5,True,8.76423,8.70701,8.82742,obs_scaling,
3,300,5,5,True,10.684,10.5532,10.7659,obs_scaling,
4,300,5,5,True,12.4758,12.4046,12.553,obs_scaling,
5,300,5,5,True,14.3327,14.2667,14.4439,obs_scaling,
6,300,5,5,True,16.2622,16.2155,16.3029,obs_scaling,
7,300,5,5,True,18.2117,18.1576,18.3261,obs_scaling,
8,300,5,5,True,19.958,19.7842,20.0332,obs_scaling,
1,400,5,5,True,6.98695,6.94652,7.01959,obs_scaling,
2,400,5,5,True,9.13576,9.07031,9.19906,obs_scaling,
3,400,5,5,True,11.1532,11.095,11.1786,obs_scaling,
4,400,5,5,True,13.0399,12.9559,13.1253,obs_scaling,
5,400,5,5,True,14.8229,14.7919,14.8728,obs_scaling,
6,400,5,5,True,16.7817,16.7497,16.8382,obs_scaling,
7,400,5,5,True,18.7316,18.6458,18.8289,obs_scaling,
8,400,5,5,True,20.4853,20.4606,20.5058,obs_scaling,
1,500,5,5,True,7.49875,7.48101,7.53317,obs_scaling,
2,500,5,5,True,9.73537,9.7233,9.74727,obs_scaling,
3,500,5,5,True,11.7355,11.6823,11.8122,obs_scaling,
4,500,5,5,True,13.6226,13.5576,13.7156,obs_scaling,
5,500,5,5,True,15.7251,15.6516,15.8104,obs_scaling,
6,500,5,5,True,17.6315,17.6121,17.68,obs_scaling,
7,500,5,5,True,19.6879,19.5882,19.7518,obs_scaling,
8,500,5,5,True,21.7246,21.6612,21.7951,obs_scaling,
1,246,2,1,True,0.322149,,0.323531,iter_nback_scaling,5.0
1,246,2,1,False,0.313107,,0.313502,iter_nback_scaling,5.0
1,246,2,5,True,1.80927,,1.81433,iter_nback_scaling,5.0
1,246,2,5,False,1.74591,,1.77344,iter_nback_scaling,5.0
1,246,2,10,True,3.66342,,3.75388,iter_nback_scaling,5.0
1,246,2,10,False,3.53482,,3.59723,iter_nback_scaling,5.0
1,246,2,15,True,5.54186,,5.58535,iter_nback_scaling,5.0
1,246,2,15,False,5.30181,,5.3308,iter_nback_scaling,5.0
1,246,2,20,True,7.35103,,7.40612,iter_nback_scaling,5.0
1,246,2,20,False,7.1259,,7.15926,iter_nback_scaling,5.0
1,246,3,1,True,0.523148,,0.525965,iter_nback_scaling,5.0
1,246,3,1,False,0.506423,,0.507044,iter_nback_scaling,5.0
1,246,3,5,True,3.07418,,3.13332,iter_nback_scaling,5.0
1,246,3,5,False,2.95198,,2.95826,iter_nback_scaling,5.0
1,246,3,10,True,6.20654,,6.2388,iter_nback_scaling,5.0
1,246,3,10,False,6.00755,,6.03488,iter_nback_scaling,5.0
1,246,3,15,True,9.41219,,9.47287,iter_nback_scaling,5.0
1,246,3,15,False,9.13156,,9.18104,iter_nback_scaling,5.0
1,246,3,20,True,12.5833,,12.6486,iter_nback_scaling,5.0
1,246,3,20,False,12.2131,,12.2543,iter_nback_scaling,5.0
1,246,4,1,True,0.780063,,0.791384,iter_nback_scaling,5.0
1,246,4,1,False,0.742553,,0.749141,iter_nback_scaling,5.0
1,246,4,5,True,4.5651,,4.58806,iter_nback_scaling,5.0
1,246,4,5,False,4.39237,,4.40529,iter_nback_scaling,5.0
1,246,4,10,True,9.28037,,9.33076,iter_nback_scaling,5.0
1,246,4,10,False,9.03339,,9.12351,iter_nback_scaling,5.0
1,246,4,15,True,14.075,,14.152,iter_nback_scaling,5.0
1,246,4,15,False,13.6368,,13.7001,iter_nback_scaling,5.0
1,246,4,20,True,18.9076,,19.0108,iter_nback_scaling,5.0
1,246,4,20,False,18.2995,,18.3541,iter_nback_scaling,5.0
1,246,5,1,True,1.02063,,1.02846,iter_nback_scaling,5.0
1,246,5,1,False,0.98724,,0.989384,iter_nback_scaling,5.0
1,246,5,5,True,6.30568,,6.36155,iter_nback_scaling,5.0
1,246,5,5,False,6.1208,,6.1556,iter_nback_scaling,5.0
1,246,5,10,True,12.9922,,13.0239,iter_nback_scaling,5.0
1,246,5,10,False,12.5241,,12.582,iter_nback_scaling,5.0
1,246,5,15,True,19.5683,,19.6655,iter_nback_scaling,5.0
1,246,5,15,False,18.9227,,19.0592,iter_nback_scaling,5.0
1,246,5,20,True,26.1974,,26.339,iter_nback_scaling,5.0
1,246,5,20,False,25.299,,25.4301,iter_nback_scaling,5.0